"STUDYID","DOMAIN","USUBJID","SUBJID","VISITNUM","VISIT","VSTESTCD","VSTEST","VSORRES","VSORRESU","VSDTC"
"STUDY-001","VS","STUDY-001-001","001",1,"WEEK 1","SYSBP","Systolic Blood Pressure",123,"mmHg","2026-01-20"
"STUDY-001","VS","STUDY-001-001","001",1,"WEEK 1","DIABP","Diastolic Blood Pressure",85,"mmHg","2026-01-20"
"STUDY-001","VS","STUDY-001-001","001",1,"WEEK 1","PULSE","Pulse Rate",72,"beats/min","2026-01-20"
"STUDY-001","VS","STUDY-001-001","001",2,"WEEK 4","SYSBP","Systolic Blood Pressure",118,"mmHg","2026-02-17"
"STUDY-001","VS","STUDY-001-001","001",2,"WEEK 4","DIABP","Diastolic Blood Pressure",80,"mmHg","2026-02-17"
"STUDY-001","VS","STUDY-001-001","001",2,"WEEK 4","PULSE","Pulse Rate",76,"beats/min","2026-02-17"
"STUDY-001","VS","STUDY-001-001","001",3,"WEEK 12","SYSBP","Systolic Blood Pressure",113,"mmHg","2026-04-14"
"STUDY-001","VS","STUDY-001-001","001",3,"WEEK 12","DIABP","Diastolic Blood Pressure",78,"mmHg","2026-04-14"
"STUDY-001","VS","STUDY-001-001","001",3,"WEEK 12","PULSE","Pulse Rate",57,"beats/min","2026-04-14"
"STUDY-001","VS","STUDY-001-002","002",1,"WEEK 1","SYSBP","Systolic Blood Pressure",112,"mmHg","2026-01-24"
"STUDY-001","VS","STUDY-001-002","002",1,"WEEK 1","DIABP","Diastolic Blood Pressure",81,"mmHg","2026-01-24"
"STUDY-001","VS","STUDY-001-002","002",1,"WEEK 1","PULSE","Pulse Rate",67,"beats/min","2026-01-24"
"STUDY-001","VS","STUDY-001-002","002",2,"WEEK 4","SYSBP","Systolic Blood Pressure",115,"mmHg","2026-02-21"
"STUDY-001","VS","STUDY-001-002","002",2,"WEEK 4","DIABP","Diastolic Blood Pressure",76,"mmHg","2026-02-21"
"STUDY-001","VS","STUDY-001-002","002",2,"WEEK 4","PULSE","Pulse Rate",83,"beats/min","2026-02-21"
"STUDY-001","VS","STUDY-001-002","002",3,"WEEK 12","SYSBP","Systolic Blood Pressure",129,"mmHg","2026-04-18"
"STUDY-001","VS","STUDY-001-002","002",3,"WEEK 12","DIABP","Diastolic Blood Pressure",83,"mmHg","2026-04-18"
"STUDY-001","VS","STUDY-001-002","002",3,"WEEK 12","PULSE","Pulse Rate",90,"beats/min","2026-04-18"
"STUDY-001","VS","STUDY-001-003","003",1,"WEEK 1","SYSBP","Systolic Blood Pressure",114,"mmHg","2026-01-25"
"STUDY-001","VS","STUDY-001-003","003",1,"WEEK 1","DIABP","Diastolic Blood Pressure",88,"mmHg","2026-01-25"
"STUDY-001","VS","STUDY-001-003","003",1,"WEEK 1","PULSE","Pulse Rate",83,"beats/min","2026-01-25"
"STUDY-001","VS","STUDY-001-003","003",2,"WEEK 4","SYSBP","Systolic Blood Pressure",125,"mmHg","2026-02-22"
"STUDY-001","VS","STUDY-001-003","003",2,"WEEK 4","DIABP","Diastolic Blood Pressure",78,"mmHg","2026-02-22"
"STUDY-001","VS","STUDY-001-003","003",2,"WEEK 4","PULSE","Pulse Rate",73,"beats/min","2026-02-22"
"STUDY-001","VS","STUDY-001-003","003",3,"WEEK 12","SYSBP","Systolic Blood Pressure",106,"mmHg","2026-04-19"
"STUDY-001","VS","STUDY-001-003","003",3,"WEEK 12","DIABP","Diastolic Blood Pressure",66,"mmHg","2026-04-19"
"STUDY-001","VS","STUDY-001-003","003",3,"WEEK 12","PULSE","Pulse Rate",90,"beats/min","2026-04-19"
"STUDY-001","VS","STUDY-001-004","004",1,"WEEK 1","SYSBP","Systolic Blood Pressure",100,"mmHg","2026-01-28"
"STUDY-001","VS","STUDY-001-004","004",1,"WEEK 1","DIABP","Diastolic Blood Pressure",81,"mmHg","2026-01-28"
"STUDY-001","VS","STUDY-001-004","004",1,"WEEK 1","PULSE","Pulse Rate",64,"beats/min","2026-01-28"
"STUDY-001","VS","STUDY-001-004","004",2,"WEEK 4","SYSBP","Systolic Blood Pressure",125,"mmHg","2026-02-25"
"STUDY-001","VS","STUDY-001-004","004",2,"WEEK 4","DIABP","Diastolic Blood Pressure",70,"mmHg","2026-02-25"
"STUDY-001","VS","STUDY-001-004","004",2,"WEEK 4","PULSE","Pulse Rate",78,"beats/min","2026-02-25"
"STUDY-001","VS","STUDY-001-004","004",3,"WEEK 12","SYSBP","Systolic Blood Pressure",134,"mmHg","2026-04-22"
"STUDY-001","VS","STUDY-001-004","004",3,"WEEK 12","DIABP","Diastolic Blood Pressure",93,"mmHg","2026-04-22"
"STUDY-001","VS","STUDY-001-004","004",3,"WEEK 12","PULSE","Pulse Rate",73,"beats/min","2026-04-22"
"STUDY-001","VS","STUDY-001-005","005",1,"WEEK 1","SYSBP","Systolic Blood Pressure",114,"mmHg","2026-02-03"
"STUDY-001","VS","STUDY-001-005","005",1,"WEEK 1","DIABP","Diastolic Blood Pressure",69,"mmHg","2026-02-03"
"STUDY-001","VS","STUDY-001-005","005",1,"WEEK 1","PULSE","Pulse Rate",70,"beats/min","2026-02-03"
"STUDY-001","VS","STUDY-001-005","005",2,"WEEK 4","SYSBP","Systolic Blood Pressure",121,"mmHg","2026-03-03"
"STUDY-001","VS","STUDY-001-005","005",2,"WEEK 4","DIABP","Diastolic Blood Pressure",69,"mmHg","2026-03-03"
"STUDY-001","VS","STUDY-001-005","005",2,"WEEK 4","PULSE","Pulse Rate",79,"beats/min","2026-03-03"
"STUDY-001","VS","STUDY-001-005","005",3,"WEEK 12","SYSBP","Systolic Blood Pressure",119,"mmHg","2026-04-28"
"STUDY-001","VS","STUDY-001-005","005",3,"WEEK 12","DIABP","Diastolic Blood Pressure",72,"mmHg","2026-04-28"
"STUDY-001","VS","STUDY-001-005","005",3,"WEEK 12","PULSE","Pulse Rate",72,"beats/min","2026-04-28"
"STUDY-001","VS","STUDY-001-006","006",1,"WEEK 1","SYSBP","Systolic Blood Pressure",119,"mmHg","2026-02-05"
"STUDY-001","VS","STUDY-001-006","006",1,"WEEK 1","DIABP","Diastolic Blood Pressure",71,"mmHg","2026-02-05"
"STUDY-001","VS","STUDY-001-006","006",1,"WEEK 1","PULSE","Pulse Rate",81,"beats/min","2026-02-05"
"STUDY-001","VS","STUDY-001-006","006",2,"WEEK 4","SYSBP","Systolic Blood Pressure",122,"mmHg","2026-03-05"
"STUDY-001","VS","STUDY-001-006","006",2,"WEEK 4","DIABP","Diastolic Blood Pressure",92,"mmHg","2026-03-05"
"STUDY-001","VS","STUDY-001-006","006",2,"WEEK 4","PULSE","Pulse Rate",73,"beats/min","2026-03-05"
"STUDY-001","VS","STUDY-001-006","006",3,"WEEK 12","SYSBP","Systolic Blood Pressure",120,"mmHg","2026-04-30"
"STUDY-001","VS","STUDY-001-006","006",3,"WEEK 12","DIABP","Diastolic Blood Pressure",68,"mmHg","2026-04-30"
"STUDY-001","VS","STUDY-001-006","006",3,"WEEK 12","PULSE","Pulse Rate",65,"beats/min","2026-04-30"
"STUDY-001","VS","STUDY-001-007","007",1,"WEEK 1","SYSBP","Systolic Blood Pressure",130,"mmHg","2026-02-07"
"STUDY-001","VS","STUDY-001-007","007",1,"WEEK 1","DIABP","Diastolic Blood Pressure",77,"mmHg","2026-02-07"
"STUDY-001","VS","STUDY-001-007","007",1,"WEEK 1","PULSE","Pulse Rate",68,"beats/min","2026-02-07"
"STUDY-001","VS","STUDY-001-007","007",2,"WEEK 4","SYSBP","Systolic Blood Pressure",135,"mmHg","2026-03-07"
"STUDY-001","VS","STUDY-001-007","007",2,"WEEK 4","DIABP","Diastolic Blood Pressure",89,"mmHg","2026-03-07"
"STUDY-001","VS","STUDY-001-007","007",2,"WEEK 4","PULSE","Pulse Rate",53,"beats/min","2026-03-07"
"STUDY-001","VS","STUDY-001-007","007",3,"WEEK 12","SYSBP","Systolic Blood Pressure",110,"mmHg","2026-05-02"
"STUDY-001","VS","STUDY-001-007","007",3,"WEEK 12","DIABP","Diastolic Blood Pressure",78,"mmHg","2026-05-02"
"STUDY-001","VS","STUDY-001-007","007",3,"WEEK 12","PULSE","Pulse Rate",88,"beats/min","2026-05-02"
"STUDY-001","VS","STUDY-001-008","008",1,"WEEK 1","SYSBP","Systolic Blood Pressure",126,"mmHg","2026-02-08"
"STUDY-001","VS","STUDY-001-008","008",1,"WEEK 1","DIABP","Diastolic Blood Pressure",90,"mmHg","2026-02-08"
"STUDY-001","VS","STUDY-001-008","008",1,"WEEK 1","PULSE","Pulse Rate",74,"beats/min","2026-02-08"
"STUDY-001","VS","STUDY-001-008","008",2,"WEEK 4","SYSBP","Systolic Blood Pressure",121,"mmHg","2026-03-08"
"STUDY-001","VS","STUDY-001-008","008",2,"WEEK 4","DIABP","Diastolic Blood Pressure",62,"mmHg","2026-03-08"
"STUDY-001","VS","STUDY-001-008","008",2,"WEEK 4","PULSE","Pulse Rate",74,"beats/min","2026-03-08"
"STUDY-001","VS","STUDY-001-008","008",3,"WEEK 12","SYSBP","Systolic Blood Pressure",141,"mmHg","2026-05-03"
"STUDY-001","VS","STUDY-001-008","008",3,"WEEK 12","DIABP","Diastolic Blood Pressure",69,"mmHg","2026-05-03"
"STUDY-001","VS","STUDY-001-008","008",3,"WEEK 12","PULSE","Pulse Rate",71,"beats/min","2026-05-03"
"STUDY-001","VS","STUDY-001-009","009",1,"WEEK 1","SYSBP","Systolic Blood Pressure",99,"mmHg","2026-02-12"
"STUDY-001","VS","STUDY-001-009","009",1,"WEEK 1","DIABP","Diastolic Blood Pressure",80,"mmHg","2026-02-12"
"STUDY-001","VS","STUDY-001-009","009",1,"WEEK 1","PULSE","Pulse Rate",65,"beats/min","2026-02-12"
"STUDY-001","VS","STUDY-001-009","009",2,"WEEK 4","SYSBP","Systolic Blood Pressure",132,"mmHg","2026-03-12"
"STUDY-001","VS","STUDY-001-009","009",2,"WEEK 4","DIABP","Diastolic Blood Pressure",70,"mmHg","2026-03-12"
"STUDY-001","VS","STUDY-001-009","009",2,"WEEK 4","PULSE","Pulse Rate",64,"beats/min","2026-03-12"
"STUDY-001","VS","STUDY-001-009","009",3,"WEEK 12","SYSBP","Systolic Blood Pressure",139,"mmHg","2026-05-07"
"STUDY-001","VS","STUDY-001-009","009",3,"WEEK 12","DIABP","Diastolic Blood Pressure",78,"mmHg","2026-05-07"
"STUDY-001","VS","STUDY-001-009","009",3,"WEEK 12","PULSE","Pulse Rate",81,"beats/min","2026-05-07"
"STUDY-001","VS","STUDY-001-010","010",1,"WEEK 1","SYSBP","Systolic Blood Pressure",130,"mmHg","2026-02-18"
"STUDY-001","VS","STUDY-001-010","010",1,"WEEK 1","DIABP","Diastolic Blood Pressure",83,"mmHg","2026-02-18"
"STUDY-001","VS","STUDY-001-010","010",1,"WEEK 1","PULSE","Pulse Rate",79,"beats/min","2026-02-18"
"STUDY-001","VS","STUDY-001-010","010",2,"WEEK 4","SYSBP","Systolic Blood Pressure",130,"mmHg","2026-03-18"
"STUDY-001","VS","STUDY-001-010","010",2,"WEEK 4","DIABP","Diastolic Blood Pressure",92,"mmHg","2026-03-18"
"STUDY-001","VS","STUDY-001-010","010",2,"WEEK 4","PULSE","Pulse Rate",88,"beats/min","2026-03-18"
"STUDY-001","VS","STUDY-001-010","010",3,"WEEK 12","SYSBP","Systolic Blood Pressure",116,"mmHg","2026-05-13"
"STUDY-001","VS","STUDY-001-010","010",3,"WEEK 12","DIABP","Diastolic Blood Pressure",73,"mmHg","2026-05-13"
"STUDY-001","VS","STUDY-001-010","010",3,"WEEK 12","PULSE","Pulse Rate",80,"beats/min","2026-05-13"
"STUDY-001","VS","STUDY-001-011","011",1,"WEEK 1","SYSBP","Systolic Blood Pressure",131,"mmHg","2026-02-19"
"STUDY-001","VS","STUDY-001-011","011",1,"WEEK 1","DIABP","Diastolic Blood Pressure",84,"mmHg","2026-02-19"
"STUDY-001","VS","STUDY-001-011","011",1,"WEEK 1","PULSE","Pulse Rate",69,"beats/min","2026-02-19"
"STUDY-001","VS","STUDY-001-011","011",2,"WEEK 4","SYSBP","Systolic Blood Pressure",131,"mmHg","2026-03-19"
"STUDY-001","VS","STUDY-001-011","011",2,"WEEK 4","DIABP","Diastolic Blood Pressure",71,"mmHg","2026-03-19"
"STUDY-001","VS","STUDY-001-011","011",2,"WEEK 4","PULSE","Pulse Rate",71,"beats/min","2026-03-19"
"STUDY-001","VS","STUDY-001-011","011",3,"WEEK 12","SYSBP","Systolic Blood Pressure",123,"mmHg","2026-05-14"
"STUDY-001","VS","STUDY-001-011","011",3,"WEEK 12","DIABP","Diastolic Blood Pressure",71,"mmHg","2026-05-14"
"STUDY-001","VS","STUDY-001-011","011",3,"WEEK 12","PULSE","Pulse Rate",72,"beats/min","2026-05-14"
"STUDY-001","VS","STUDY-001-012","012",1,"WEEK 1","SYSBP","Systolic Blood Pressure",128,"mmHg","2026-02-22"
"STUDY-001","VS","STUDY-001-012","012",1,"WEEK 1","DIABP","Diastolic Blood Pressure",67,"mmHg","2026-02-22"
"STUDY-001","VS","STUDY-001-012","012",1,"WEEK 1","PULSE","Pulse Rate",71,"beats/min","2026-02-22"
"STUDY-001","VS","STUDY-001-012","012",2,"WEEK 4","SYSBP","Systolic Blood Pressure",122,"mmHg","2026-03-22"
"STUDY-001","VS","STUDY-001-012","012",2,"WEEK 4","DIABP","Diastolic Blood Pressure",75,"mmHg","2026-03-22"
"STUDY-001","VS","STUDY-001-012","012",2,"WEEK 4","PULSE","Pulse Rate",86,"beats/min","2026-03-22"
"STUDY-001","VS","STUDY-001-012","012",3,"WEEK 12","SYSBP","Systolic Blood Pressure",145,"mmHg","2026-05-17"
"STUDY-001","VS","STUDY-001-012","012",3,"WEEK 12","DIABP","Diastolic Blood Pressure",80,"mmHg","2026-05-17"
"STUDY-001","VS","STUDY-001-012","012",3,"WEEK 12","PULSE","Pulse Rate",65,"beats/min","2026-05-17"
"STUDY-001","VS","STUDY-001-013","013",1,"WEEK 1","SYSBP","Systolic Blood Pressure",92,"mmHg","2026-02-23"
"STUDY-001","VS","STUDY-001-013","013",1,"WEEK 1","DIABP","Diastolic Blood Pressure",78,"mmHg","2026-02-23"
"STUDY-001","VS","STUDY-001-013","013",1,"WEEK 1","PULSE","Pulse Rate",55,"beats/min","2026-02-23"
"STUDY-001","VS","STUDY-001-013","013",2,"WEEK 4","SYSBP","Systolic Blood Pressure",145,"mmHg","2026-03-23"
"STUDY-001","VS","STUDY-001-013","013",2,"WEEK 4","DIABP","Diastolic Blood Pressure",59,"mmHg","2026-03-23"
"STUDY-001","VS","STUDY-001-013","013",2,"WEEK 4","PULSE","Pulse Rate",76,"beats/min","2026-03-23"
"STUDY-001","VS","STUDY-001-013","013",3,"WEEK 12","SYSBP","Systolic Blood Pressure",110,"mmHg","2026-05-18"
"STUDY-001","VS","STUDY-001-013","013",3,"WEEK 12","DIABP","Diastolic Blood Pressure",94,"mmHg","2026-05-18"
"STUDY-001","VS","STUDY-001-013","013",3,"WEEK 12","PULSE","Pulse Rate",69,"beats/min","2026-05-18"
"STUDY-001","VS","STUDY-001-014","014",1,"WEEK 1","SYSBP","Systolic Blood Pressure",128,"mmHg","2026-02-25"
"STUDY-001","VS","STUDY-001-014","014",1,"WEEK 1","DIABP","Diastolic Blood Pressure",81,"mmHg","2026-02-25"
"STUDY-001","VS","STUDY-001-014","014",1,"WEEK 1","PULSE","Pulse Rate",89,"beats/min","2026-02-25"
"STUDY-001","VS","STUDY-001-014","014",2,"WEEK 4","SYSBP","Systolic Blood Pressure",128,"mmHg","2026-03-25"
"STUDY-001","VS","STUDY-001-014","014",2,"WEEK 4","DIABP","Diastolic Blood Pressure",67,"mmHg","2026-03-25"
"STUDY-001","VS","STUDY-001-014","014",2,"WEEK 4","PULSE","Pulse Rate",66,"beats/min","2026-03-25"
"STUDY-001","VS","STUDY-001-014","014",3,"WEEK 12","SYSBP","Systolic Blood Pressure",130,"mmHg","2026-05-20"
"STUDY-001","VS","STUDY-001-014","014",3,"WEEK 12","DIABP","Diastolic Blood Pressure",78,"mmHg","2026-05-20"
"STUDY-001","VS","STUDY-001-014","014",3,"WEEK 12","PULSE","Pulse Rate",61,"beats/min","2026-05-20"
"STUDY-001","VS","STUDY-001-015","015",1,"WEEK 1","SYSBP","Systolic Blood Pressure",136,"mmHg","2026-02-26"
"STUDY-001","VS","STUDY-001-015","015",1,"WEEK 1","DIABP","Diastolic Blood Pressure",73,"mmHg","2026-02-26"
"STUDY-001","VS","STUDY-001-015","015",1,"WEEK 1","PULSE","Pulse Rate",77,"beats/min","2026-02-26"
"STUDY-001","VS","STUDY-001-015","015",2,"WEEK 4","SYSBP","Systolic Blood Pressure",122,"mmHg","2026-03-26"
"STUDY-001","VS","STUDY-001-015","015",2,"WEEK 4","DIABP","Diastolic Blood Pressure",67,"mmHg","2026-03-26"
"STUDY-001","VS","STUDY-001-015","015",2,"WEEK 4","PULSE","Pulse Rate",79,"beats/min","2026-03-26"
"STUDY-001","VS","STUDY-001-015","015",3,"WEEK 12","SYSBP","Systolic Blood Pressure",118,"mmHg","2026-05-21"
"STUDY-001","VS","STUDY-001-015","015",3,"WEEK 12","DIABP","Diastolic Blood Pressure",87,"mmHg","2026-05-21"
"STUDY-001","VS","STUDY-001-015","015",3,"WEEK 12","PULSE","Pulse Rate",67,"beats/min","2026-05-21"
"STUDY-001","VS","STUDY-001-016","016",1,"WEEK 1","SYSBP","Systolic Blood Pressure",128,"mmHg","2026-02-27"
"STUDY-001","VS","STUDY-001-016","016",1,"WEEK 1","DIABP","Diastolic Blood Pressure",65,"mmHg","2026-02-27"
"STUDY-001","VS","STUDY-001-016","016",1,"WEEK 1","PULSE","Pulse Rate",72,"beats/min","2026-02-27"
"STUDY-001","VS","STUDY-001-016","016",2,"WEEK 4","SYSBP","Systolic Blood Pressure",118,"mmHg","2026-03-27"
"STUDY-001","VS","STUDY-001-016","016",2,"WEEK 4","DIABP","Diastolic Blood Pressure",71,"mmHg","2026-03-27"
"STUDY-001","VS","STUDY-001-016","016",2,"WEEK 4","PULSE","Pulse Rate",63,"beats/min","2026-03-27"
"STUDY-001","VS","STUDY-001-016","016",3,"WEEK 12","SYSBP","Systolic Blood Pressure",120,"mmHg","2026-05-22"
"STUDY-001","VS","STUDY-001-016","016",3,"WEEK 12","DIABP","Diastolic Blood Pressure",78,"mmHg","2026-05-22"
"STUDY-001","VS","STUDY-001-016","016",3,"WEEK 12","PULSE","Pulse Rate",77,"beats/min","2026-05-22"
"STUDY-001","VS","STUDY-001-017","017",1,"WEEK 1","SYSBP","Systolic Blood Pressure",123,"mmHg","2026-03-01"
"STUDY-001","VS","STUDY-001-017","017",1,"WEEK 1","DIABP","Diastolic Blood Pressure",82,"mmHg","2026-03-01"
"STUDY-001","VS","STUDY-001-017","017",1,"WEEK 1","PULSE","Pulse Rate",63,"beats/min","2026-03-01"
"STUDY-001","VS","STUDY-001-017","017",2,"WEEK 4","SYSBP","Systolic Blood Pressure",118,"mmHg","2026-03-29"
"STUDY-001","VS","STUDY-001-017","017",2,"WEEK 4","DIABP","Diastolic Blood Pressure",86,"mmHg","2026-03-29"
"STUDY-001","VS","STUDY-001-017","017",2,"WEEK 4","PULSE","Pulse Rate",68,"beats/min","2026-03-29"
"STUDY-001","VS","STUDY-001-017","017",3,"WEEK 12","SYSBP","Systolic Blood Pressure",138,"mmHg","2026-05-24"
"STUDY-001","VS","STUDY-001-017","017",3,"WEEK 12","DIABP","Diastolic Blood Pressure",63,"mmHg","2026-05-24"
"STUDY-001","VS","STUDY-001-017","017",3,"WEEK 12","PULSE","Pulse Rate",86,"beats/min","2026-05-24"
"STUDY-001","VS","STUDY-001-018","018",1,"WEEK 1","SYSBP","Systolic Blood Pressure",136,"mmHg","2026-03-05"
"STUDY-001","VS","STUDY-001-018","018",1,"WEEK 1","DIABP","Diastolic Blood Pressure",87,"mmHg","2026-03-05"
"STUDY-001","VS","STUDY-001-018","018",1,"WEEK 1","PULSE","Pulse Rate",66,"beats/min","2026-03-05"
"STUDY-001","VS","STUDY-001-018","018",2,"WEEK 4","SYSBP","Systolic Blood Pressure",122,"mmHg","2026-04-02"
"STUDY-001","VS","STUDY-001-018","018",2,"WEEK 4","DIABP","Diastolic Blood Pressure",81,"mmHg","2026-04-02"
"STUDY-001","VS","STUDY-001-018","018",2,"WEEK 4","PULSE","Pulse Rate",66,"beats/min","2026-04-02"
"STUDY-001","VS","STUDY-001-018","018",3,"WEEK 12","SYSBP","Systolic Blood Pressure",125,"mmHg","2026-05-28"
"STUDY-001","VS","STUDY-001-018","018",3,"WEEK 12","DIABP","Diastolic Blood Pressure",72,"mmHg","2026-05-28"
"STUDY-001","VS","STUDY-001-018","018",3,"WEEK 12","PULSE","Pulse Rate",75,"beats/min","2026-05-28"
"STUDY-001","VS","STUDY-001-019","019",1,"WEEK 1","SYSBP","Systolic Blood Pressure",106,"mmHg","2026-03-06"
"STUDY-001","VS","STUDY-001-019","019",1,"WEEK 1","DIABP","Diastolic Blood Pressure",69,"mmHg","2026-03-06"
"STUDY-001","VS","STUDY-001-019","019",1,"WEEK 1","PULSE","Pulse Rate",81,"beats/min","2026-03-06"
"STUDY-001","VS","STUDY-001-019","019",2,"WEEK 4","SYSBP","Systolic Blood Pressure",128,"mmHg","2026-04-03"
"STUDY-001","VS","STUDY-001-019","019",2,"WEEK 4","DIABP","Diastolic Blood Pressure",101,"mmHg","2026-04-03"
"STUDY-001","VS","STUDY-001-019","019",2,"WEEK 4","PULSE","Pulse Rate",80,"beats/min","2026-04-03"
"STUDY-001","VS","STUDY-001-019","019",3,"WEEK 12","SYSBP","Systolic Blood Pressure",141,"mmHg","2026-05-29"
"STUDY-001","VS","STUDY-001-019","019",3,"WEEK 12","DIABP","Diastolic Blood Pressure",56,"mmHg","2026-05-29"
"STUDY-001","VS","STUDY-001-019","019",3,"WEEK 12","PULSE","Pulse Rate",79,"beats/min","2026-05-29"
"STUDY-001","VS","STUDY-001-020","020",1,"WEEK 1","SYSBP","Systolic Blood Pressure",117,"mmHg","2026-03-07"
"STUDY-001","VS","STUDY-001-020","020",1,"WEEK 1","DIABP","Diastolic Blood Pressure",71,"mmHg","2026-03-07"
"STUDY-001","VS","STUDY-001-020","020",1,"WEEK 1","PULSE","Pulse Rate",67,"beats/min","2026-03-07"
"STUDY-001","VS","STUDY-001-020","020",2,"WEEK 4","SYSBP","Systolic Blood Pressure",116,"mmHg","2026-04-04"
"STUDY-001","VS","STUDY-001-020","020",2,"WEEK 4","DIABP","Diastolic Blood Pressure",87,"mmHg","2026-04-04"
"STUDY-001","VS","STUDY-001-020","020",2,"WEEK 4","PULSE","Pulse Rate",61,"beats/min","2026-04-04"
"STUDY-001","VS","STUDY-001-020","020",3,"WEEK 12","SYSBP","Systolic Blood Pressure",132,"mmHg","2026-05-30"
"STUDY-001","VS","STUDY-001-020","020",3,"WEEK 12","DIABP","Diastolic Blood Pressure",68,"mmHg","2026-05-30"
"STUDY-001","VS","STUDY-001-020","020",3,"WEEK 12","PULSE","Pulse Rate",83,"beats/min","2026-05-30"
"STUDY-001","VS","STUDY-001-021","021",1,"WEEK 1","SYSBP","Systolic Blood Pressure",138,"mmHg","2026-03-16"
"STUDY-001","VS","STUDY-001-021","021",1,"WEEK 1","DIABP","Diastolic Blood Pressure",58,"mmHg","2026-03-16"
"STUDY-001","VS","STUDY-001-021","021",1,"WEEK 1","PULSE","Pulse Rate",66,"beats/min","2026-03-16"
"STUDY-001","VS","STUDY-001-021","021",2,"WEEK 4","SYSBP","Systolic Blood Pressure",147,"mmHg","2026-04-13"
"STUDY-001","VS","STUDY-001-021","021",2,"WEEK 4","DIABP","Diastolic Blood Pressure",87,"mmHg","2026-04-13"
"STUDY-001","VS","STUDY-001-021","021",2,"WEEK 4","PULSE","Pulse Rate",74,"beats/min","2026-04-13"
"STUDY-001","VS","STUDY-001-021","021",3,"WEEK 12","SYSBP","Systolic Blood Pressure",133,"mmHg","2026-06-08"
"STUDY-001","VS","STUDY-001-021","021",3,"WEEK 12","DIABP","Diastolic Blood Pressure",75,"mmHg","2026-06-08"
"STUDY-001","VS","STUDY-001-021","021",3,"WEEK 12","PULSE","Pulse Rate",87,"beats/min","2026-06-08"
"STUDY-001","VS","STUDY-001-022","022",1,"WEEK 1","SYSBP","Systolic Blood Pressure",124,"mmHg","2026-03-17"
"STUDY-001","VS","STUDY-001-022","022",1,"WEEK 1","DIABP","Diastolic Blood Pressure",74,"mmHg","2026-03-17"
"STUDY-001","VS","STUDY-001-022","022",1,"WEEK 1","PULSE","Pulse Rate",65,"beats/min","2026-03-17"
"STUDY-001","VS","STUDY-001-022","022",2,"WEEK 4","SYSBP","Systolic Blood Pressure",161,"mmHg","2026-04-14"
"STUDY-001","VS","STUDY-001-022","022",2,"WEEK 4","DIABP","Diastolic Blood Pressure",70,"mmHg","2026-04-14"
"STUDY-001","VS","STUDY-001-022","022",2,"WEEK 4","PULSE","Pulse Rate",70,"beats/min","2026-04-14"
"STUDY-001","VS","STUDY-001-022","022",3,"WEEK 12","SYSBP","Systolic Blood Pressure",97,"mmHg","2026-06-09"
"STUDY-001","VS","STUDY-001-022","022",3,"WEEK 12","DIABP","Diastolic Blood Pressure",78,"mmHg","2026-06-09"
"STUDY-001","VS","STUDY-001-022","022",3,"WEEK 12","PULSE","Pulse Rate",63,"beats/min","2026-06-09"
"STUDY-001","VS","STUDY-001-023","023",1,"WEEK 1","SYSBP","Systolic Blood Pressure",125,"mmHg","2026-03-22"
"STUDY-001","VS","STUDY-001-023","023",1,"WEEK 1","DIABP","Diastolic Blood Pressure",99,"mmHg","2026-03-22"
"STUDY-001","VS","STUDY-001-023","023",1,"WEEK 1","PULSE","Pulse Rate",77,"beats/min","2026-03-22"
"STUDY-001","VS","STUDY-001-023","023",2,"WEEK 4","SYSBP","Systolic Blood Pressure",126,"mmHg","2026-04-19"
"STUDY-001","VS","STUDY-001-023","023",2,"WEEK 4","DIABP","Diastolic Blood Pressure",92,"mmHg","2026-04-19"
"STUDY-001","VS","STUDY-001-023","023",2,"WEEK 4","PULSE","Pulse Rate",78,"beats/min","2026-04-19"
"STUDY-001","VS","STUDY-001-023","023",3,"WEEK 12","SYSBP","Systolic Blood Pressure",132,"mmHg","2026-06-14"
"STUDY-001","VS","STUDY-001-023","023",3,"WEEK 12","DIABP","Diastolic Blood Pressure",91,"mmHg","2026-06-14"
"STUDY-001","VS","STUDY-001-023","023",3,"WEEK 12","PULSE","Pulse Rate",83,"beats/min","2026-06-14"
"STUDY-001","VS","STUDY-001-024","024",1,"WEEK 1","SYSBP","Systolic Blood Pressure",108,"mmHg","2026-03-23"
"STUDY-001","VS","STUDY-001-024","024",1,"WEEK 1","DIABP","Diastolic Blood Pressure",78,"mmHg","2026-03-23"
"STUDY-001","VS","STUDY-001-024","024",1,"WEEK 1","PULSE","Pulse Rate",88,"beats/min","2026-03-23"
"STUDY-001","VS","STUDY-001-024","024",2,"WEEK 4","SYSBP","Systolic Blood Pressure",114,"mmHg","2026-04-20"
"STUDY-001","VS","STUDY-001-024","024",2,"WEEK 4","DIABP","Diastolic Blood Pressure",85,"mmHg","2026-04-20"
"STUDY-001","VS","STUDY-001-024","024",2,"WEEK 4","PULSE","Pulse Rate",70,"beats/min","2026-04-20"
"STUDY-001","VS","STUDY-001-024","024",3,"WEEK 12","SYSBP","Systolic Blood Pressure",128,"mmHg","2026-06-15"
"STUDY-001","VS","STUDY-001-024","024",3,"WEEK 12","DIABP","Diastolic Blood Pressure",85,"mmHg","2026-06-15"
"STUDY-001","VS","STUDY-001-024","024",3,"WEEK 12","PULSE","Pulse Rate",63,"beats/min","2026-06-15"
"STUDY-001","VS","STUDY-001-025","025",1,"WEEK 1","SYSBP","Systolic Blood Pressure",136,"mmHg","2026-03-24"
"STUDY-001","VS","STUDY-001-025","025",1,"WEEK 1","DIABP","Diastolic Blood Pressure",81,"mmHg","2026-03-24"
"STUDY-001","VS","STUDY-001-025","025",1,"WEEK 1","PULSE","Pulse Rate",78,"beats/min","2026-03-24"
"STUDY-001","VS","STUDY-001-025","025",2,"WEEK 4","SYSBP","Systolic Blood Pressure",136,"mmHg","2026-04-21"
"STUDY-001","VS","STUDY-001-025","025",2,"WEEK 4","DIABP","Diastolic Blood Pressure",74,"mmHg","2026-04-21"
"STUDY-001","VS","STUDY-001-025","025",2,"WEEK 4","PULSE","Pulse Rate",61,"beats/min","2026-04-21"
"STUDY-001","VS","STUDY-001-025","025",3,"WEEK 12","SYSBP","Systolic Blood Pressure",138,"mmHg","2026-06-16"
"STUDY-001","VS","STUDY-001-025","025",3,"WEEK 12","DIABP","Diastolic Blood Pressure",72,"mmHg","2026-06-16"
"STUDY-001","VS","STUDY-001-025","025",3,"WEEK 12","PULSE","Pulse Rate",56,"beats/min","2026-06-16"
"STUDY-001","VS","STUDY-001-026","026",1,"WEEK 1","SYSBP","Systolic Blood Pressure",108,"mmHg","2026-03-30"
"STUDY-001","VS","STUDY-001-026","026",1,"WEEK 1","DIABP","Diastolic Blood Pressure",79,"mmHg","2026-03-30"
"STUDY-001","VS","STUDY-001-026","026",1,"WEEK 1","PULSE","Pulse Rate",70,"beats/min","2026-03-30"
"STUDY-001","VS","STUDY-001-026","026",2,"WEEK 4","SYSBP","Systolic Blood Pressure",110,"mmHg","2026-04-27"
"STUDY-001","VS","STUDY-001-026","026",2,"WEEK 4","DIABP","Diastolic Blood Pressure",79,"mmHg","2026-04-27"
"STUDY-001","VS","STUDY-001-026","026",2,"WEEK 4","PULSE","Pulse Rate",61,"beats/min","2026-04-27"
"STUDY-001","VS","STUDY-001-026","026",3,"WEEK 12","SYSBP","Systolic Blood Pressure",107,"mmHg","2026-06-22"
"STUDY-001","VS","STUDY-001-026","026",3,"WEEK 12","DIABP","Diastolic Blood Pressure",72,"mmHg","2026-06-22"
"STUDY-001","VS","STUDY-001-026","026",3,"WEEK 12","PULSE","Pulse Rate",74,"beats/min","2026-06-22"
"STUDY-001","VS","STUDY-001-027","027",1,"WEEK 1","SYSBP","Systolic Blood Pressure",127,"mmHg","2026-04-02"
"STUDY-001","VS","STUDY-001-027","027",1,"WEEK 1","DIABP","Diastolic Blood Pressure",78,"mmHg","2026-04-02"
"STUDY-001","VS","STUDY-001-027","027",1,"WEEK 1","PULSE","Pulse Rate",67,"beats/min","2026-04-02"
"STUDY-001","VS","STUDY-001-027","027",2,"WEEK 4","SYSBP","Systolic Blood Pressure",127,"mmHg","2026-04-30"
"STUDY-001","VS","STUDY-001-027","027",2,"WEEK 4","DIABP","Diastolic Blood Pressure",66,"mmHg","2026-04-30"
"STUDY-001","VS","STUDY-001-027","027",2,"WEEK 4","PULSE","Pulse Rate",77,"beats/min","2026-04-30"
"STUDY-001","VS","STUDY-001-027","027",3,"WEEK 12","SYSBP","Systolic Blood Pressure",128,"mmHg","2026-06-25"
"STUDY-001","VS","STUDY-001-027","027",3,"WEEK 12","DIABP","Diastolic Blood Pressure",87,"mmHg","2026-06-25"
"STUDY-001","VS","STUDY-001-027","027",3,"WEEK 12","PULSE","Pulse Rate",78,"beats/min","2026-06-25"
"STUDY-001","VS","STUDY-001-028","028",1,"WEEK 1","SYSBP","Systolic Blood Pressure",111,"mmHg","2026-04-05"
"STUDY-001","VS","STUDY-001-028","028",1,"WEEK 1","DIABP","Diastolic Blood Pressure",85,"mmHg","2026-04-05"
"STUDY-001","VS","STUDY-001-028","028",1,"WEEK 1","PULSE","Pulse Rate",67,"beats/min","2026-04-05"
"STUDY-001","VS","STUDY-001-028","028",2,"WEEK 4","SYSBP","Systolic Blood Pressure",116,"mmHg","2026-05-03"
"STUDY-001","VS","STUDY-001-028","028",2,"WEEK 4","DIABP","Diastolic Blood Pressure",69,"mmHg","2026-05-03"
"STUDY-001","VS","STUDY-001-028","028",2,"WEEK 4","PULSE","Pulse Rate",71,"beats/min","2026-05-03"
"STUDY-001","VS","STUDY-001-028","028",3,"WEEK 12","SYSBP","Systolic Blood Pressure",133,"mmHg","2026-06-28"
"STUDY-001","VS","STUDY-001-028","028",3,"WEEK 12","DIABP","Diastolic Blood Pressure",88,"mmHg","2026-06-28"
"STUDY-001","VS","STUDY-001-028","028",3,"WEEK 12","PULSE","Pulse Rate",72,"beats/min","2026-06-28"
"STUDY-001","VS","STUDY-001-029","029",1,"WEEK 1","SYSBP","Systolic Blood Pressure",138,"mmHg","2026-04-15"
"STUDY-001","VS","STUDY-001-029","029",1,"WEEK 1","DIABP","Diastolic Blood Pressure",79,"mmHg","2026-04-15"
"STUDY-001","VS","STUDY-001-029","029",1,"WEEK 1","PULSE","Pulse Rate",81,"beats/min","2026-04-15"
"STUDY-001","VS","STUDY-001-029","029",2,"WEEK 4","SYSBP","Systolic Blood Pressure",121,"mmHg","2026-05-13"
"STUDY-001","VS","STUDY-001-029","029",2,"WEEK 4","DIABP","Diastolic Blood Pressure",60,"mmHg","2026-05-13"
"STUDY-001","VS","STUDY-001-029","029",2,"WEEK 4","PULSE","Pulse Rate",65,"beats/min","2026-05-13"
"STUDY-001","VS","STUDY-001-029","029",3,"WEEK 12","SYSBP","Systolic Blood Pressure",127,"mmHg","2026-07-08"
"STUDY-001","VS","STUDY-001-029","029",3,"WEEK 12","DIABP","Diastolic Blood Pressure",68,"mmHg","2026-07-08"
"STUDY-001","VS","STUDY-001-029","029",3,"WEEK 12","PULSE","Pulse Rate",68,"beats/min","2026-07-08"
"STUDY-001","VS","STUDY-001-030","030",1,"WEEK 1","SYSBP","Systolic Blood Pressure",140,"mmHg","2026-04-19"
"STUDY-001","VS","STUDY-001-030","030",1,"WEEK 1","DIABP","Diastolic Blood Pressure",94,"mmHg","2026-04-19"
"STUDY-001","VS","STUDY-001-030","030",1,"WEEK 1","PULSE","Pulse Rate",80,"beats/min","2026-04-19"
"STUDY-001","VS","STUDY-001-030","030",2,"WEEK 4","SYSBP","Systolic Blood Pressure",119,"mmHg","2026-05-17"
"STUDY-001","VS","STUDY-001-030","030",2,"WEEK 4","DIABP","Diastolic Blood Pressure",75,"mmHg","2026-05-17"
"STUDY-001","VS","STUDY-001-030","030",2,"WEEK 4","PULSE","Pulse Rate",87,"beats/min","2026-05-17"
"STUDY-001","VS","STUDY-001-030","030",3,"WEEK 12","SYSBP","Systolic Blood Pressure",129,"mmHg","2026-07-12"
"STUDY-001","VS","STUDY-001-030","030",3,"WEEK 12","DIABP","Diastolic Blood Pressure",72,"mmHg","2026-07-12"
"STUDY-001","VS","STUDY-001-030","030",3,"WEEK 12","PULSE","Pulse Rate",65,"beats/min","2026-07-12"
"STUDY-001","VS","STUDY-001-031","031",1,"WEEK 1","SYSBP","Systolic Blood Pressure",134,"mmHg","2026-04-28"
"STUDY-001","VS","STUDY-001-031","031",1,"WEEK 1","DIABP","Diastolic Blood Pressure",69,"mmHg","2026-04-28"
"STUDY-001","VS","STUDY-001-031","031",1,"WEEK 1","PULSE","Pulse Rate",61,"beats/min","2026-04-28"
"STUDY-001","VS","STUDY-001-031","031",2,"WEEK 4","SYSBP","Systolic Blood Pressure",123,"mmHg","2026-05-26"
"STUDY-001","VS","STUDY-001-031","031",2,"WEEK 4","DIABP","Diastolic Blood Pressure",81,"mmHg","2026-05-26"
"STUDY-001","VS","STUDY-001-031","031",2,"WEEK 4","PULSE","Pulse Rate",79,"beats/min","2026-05-26"
"STUDY-001","VS","STUDY-001-031","031",3,"WEEK 12","SYSBP","Systolic Blood Pressure",127,"mmHg","2026-07-21"
"STUDY-001","VS","STUDY-001-031","031",3,"WEEK 12","DIABP","Diastolic Blood Pressure",88,"mmHg","2026-07-21"
"STUDY-001","VS","STUDY-001-031","031",3,"WEEK 12","PULSE","Pulse Rate",69,"beats/min","2026-07-21"
"STUDY-001","VS","STUDY-001-032","032",1,"WEEK 1","SYSBP","Systolic Blood Pressure",106,"mmHg","2026-04-29"
"STUDY-001","VS","STUDY-001-032","032",1,"WEEK 1","DIABP","Diastolic Blood Pressure",67,"mmHg","2026-04-29"
"STUDY-001","VS","STUDY-001-032","032",1,"WEEK 1","PULSE","Pulse Rate",74,"beats/min","2026-04-29"
"STUDY-001","VS","STUDY-001-032","032",2,"WEEK 4","SYSBP","Systolic Blood Pressure",94,"mmHg","2026-05-27"
"STUDY-001","VS","STUDY-001-032","032",2,"WEEK 4","DIABP","Diastolic Blood Pressure",84,"mmHg","2026-05-27"
"STUDY-001","VS","STUDY-001-032","032",2,"WEEK 4","PULSE","Pulse Rate",78,"beats/min","2026-05-27"
"STUDY-001","VS","STUDY-001-032","032",3,"WEEK 12","SYSBP","Systolic Blood Pressure",119,"mmHg","2026-07-22"
"STUDY-001","VS","STUDY-001-032","032",3,"WEEK 12","DIABP","Diastolic Blood Pressure",75,"mmHg","2026-07-22"
"STUDY-001","VS","STUDY-001-032","032",3,"WEEK 12","PULSE","Pulse Rate",69,"beats/min","2026-07-22"
"STUDY-001","VS","STUDY-001-033","033",1,"WEEK 1","SYSBP","Systolic Blood Pressure",136,"mmHg","2026-05-02"
"STUDY-001","VS","STUDY-001-033","033",1,"WEEK 1","DIABP","Diastolic Blood Pressure",66,"mmHg","2026-05-02"
"STUDY-001","VS","STUDY-001-033","033",1,"WEEK 1","PULSE","Pulse Rate",79,"beats/min","2026-05-02"
"STUDY-001","VS","STUDY-001-033","033",2,"WEEK 4","SYSBP","Systolic Blood Pressure",127,"mmHg","2026-05-30"
"STUDY-001","VS","STUDY-001-033","033",2,"WEEK 4","DIABP","Diastolic Blood Pressure",89,"mmHg","2026-05-30"
"STUDY-001","VS","STUDY-001-033","033",2,"WEEK 4","PULSE","Pulse Rate",77,"beats/min","2026-05-30"
"STUDY-001","VS","STUDY-001-033","033",3,"WEEK 12","SYSBP","Systolic Blood Pressure",112,"mmHg","2026-07-25"
"STUDY-001","VS","STUDY-001-033","033",3,"WEEK 12","DIABP","Diastolic Blood Pressure",89,"mmHg","2026-07-25"
"STUDY-001","VS","STUDY-001-033","033",3,"WEEK 12","PULSE","Pulse Rate",79,"beats/min","2026-07-25"
"STUDY-001","VS","STUDY-001-034","034",1,"WEEK 1","SYSBP","Systolic Blood Pressure",106,"mmHg","2026-05-03"
"STUDY-001","VS","STUDY-001-034","034",1,"WEEK 1","DIABP","Diastolic Blood Pressure",80,"mmHg","2026-05-03"
"STUDY-001","VS","STUDY-001-034","034",1,"WEEK 1","PULSE","Pulse Rate",72,"beats/min","2026-05-03"
"STUDY-001","VS","STUDY-001-034","034",2,"WEEK 4","SYSBP","Systolic Blood Pressure",123,"mmHg","2026-05-31"
"STUDY-001","VS","STUDY-001-034","034",2,"WEEK 4","DIABP","Diastolic Blood Pressure",85,"mmHg","2026-05-31"
"STUDY-001","VS","STUDY-001-034","034",2,"WEEK 4","PULSE","Pulse Rate",80,"beats/min","2026-05-31"
"STUDY-001","VS","STUDY-001-034","034",3,"WEEK 12","SYSBP","Systolic Blood Pressure",119,"mmHg","2026-07-26"
"STUDY-001","VS","STUDY-001-034","034",3,"WEEK 12","DIABP","Diastolic Blood Pressure",83,"mmHg","2026-07-26"
"STUDY-001","VS","STUDY-001-034","034",3,"WEEK 12","PULSE","Pulse Rate",60,"beats/min","2026-07-26"
"STUDY-001","VS","STUDY-001-035","035",1,"WEEK 1","SYSBP","Systolic Blood Pressure",118,"mmHg","2026-05-09"
"STUDY-001","VS","STUDY-001-035","035",1,"WEEK 1","DIABP","Diastolic Blood Pressure",83,"mmHg","2026-05-09"
"STUDY-001","VS","STUDY-001-035","035",1,"WEEK 1","PULSE","Pulse Rate",64,"beats/min","2026-05-09"
"STUDY-001","VS","STUDY-001-035","035",2,"WEEK 4","SYSBP","Systolic Blood Pressure",127,"mmHg","2026-06-06"
"STUDY-001","VS","STUDY-001-035","035",2,"WEEK 4","DIABP","Diastolic Blood Pressure",74,"mmHg","2026-06-06"
"STUDY-001","VS","STUDY-001-035","035",2,"WEEK 4","PULSE","Pulse Rate",70,"beats/min","2026-06-06"
"STUDY-001","VS","STUDY-001-035","035",3,"WEEK 12","SYSBP","Systolic Blood Pressure",112,"mmHg","2026-08-01"
"STUDY-001","VS","STUDY-001-035","035",3,"WEEK 12","DIABP","Diastolic Blood Pressure",86,"mmHg","2026-08-01"
"STUDY-001","VS","STUDY-001-035","035",3,"WEEK 12","PULSE","Pulse Rate",72,"beats/min","2026-08-01"
"STUDY-001","VS","STUDY-001-036","036",1,"WEEK 1","SYSBP","Systolic Blood Pressure",127,"mmHg","2026-05-11"
"STUDY-001","VS","STUDY-001-036","036",1,"WEEK 1","DIABP","Diastolic Blood Pressure",77,"mmHg","2026-05-11"
"STUDY-001","VS","STUDY-001-036","036",1,"WEEK 1","PULSE","Pulse Rate",81,"beats/min","2026-05-11"
"STUDY-001","VS","STUDY-001-036","036",2,"WEEK 4","SYSBP","Systolic Blood Pressure",125,"mmHg","2026-06-08"
"STUDY-001","VS","STUDY-001-036","036",2,"WEEK 4","DIABP","Diastolic Blood Pressure",83,"mmHg","2026-06-08"
"STUDY-001","VS","STUDY-001-036","036",2,"WEEK 4","PULSE","Pulse Rate",68,"beats/min","2026-06-08"
"STUDY-001","VS","STUDY-001-036","036",3,"WEEK 12","SYSBP","Systolic Blood Pressure",108,"mmHg","2026-08-03"
"STUDY-001","VS","STUDY-001-036","036",3,"WEEK 12","DIABP","Diastolic Blood Pressure",94,"mmHg","2026-08-03"
"STUDY-001","VS","STUDY-001-036","036",3,"WEEK 12","PULSE","Pulse Rate",65,"beats/min","2026-08-03"
"STUDY-001","VS","STUDY-001-037","037",1,"WEEK 1","SYSBP","Systolic Blood Pressure",113,"mmHg","2026-05-12"
"STUDY-001","VS","STUDY-001-037","037",1,"WEEK 1","DIABP","Diastolic Blood Pressure",76,"mmHg","2026-05-12"
"STUDY-001","VS","STUDY-001-037","037",1,"WEEK 1","PULSE","Pulse Rate",68,"beats/min","2026-05-12"
"STUDY-001","VS","STUDY-001-037","037",2,"WEEK 4","SYSBP","Systolic Blood Pressure",125,"mmHg","2026-06-09"
"STUDY-001","VS","STUDY-001-037","037",2,"WEEK 4","DIABP","Diastolic Blood Pressure",71,"mmHg","2026-06-09"
"STUDY-001","VS","STUDY-001-037","037",2,"WEEK 4","PULSE","Pulse Rate",74,"beats/min","2026-06-09"
"STUDY-001","VS","STUDY-001-037","037",3,"WEEK 12","SYSBP","Systolic Blood Pressure",114,"mmHg","2026-08-04"
"STUDY-001","VS","STUDY-001-037","037",3,"WEEK 12","DIABP","Diastolic Blood Pressure",77,"mmHg","2026-08-04"
"STUDY-001","VS","STUDY-001-037","037",3,"WEEK 12","PULSE","Pulse Rate",79,"beats/min","2026-08-04"
"STUDY-001","VS","STUDY-001-038","038",1,"WEEK 1","SYSBP","Systolic Blood Pressure",138,"mmHg","2026-05-26"
"STUDY-001","VS","STUDY-001-038","038",1,"WEEK 1","DIABP","Diastolic Blood Pressure",79,"mmHg","2026-05-26"
"STUDY-001","VS","STUDY-001-038","038",1,"WEEK 1","PULSE","Pulse Rate",79,"beats/min","2026-05-26"
"STUDY-001","VS","STUDY-001-038","038",2,"WEEK 4","SYSBP","Systolic Blood Pressure",129,"mmHg","2026-06-23"
"STUDY-001","VS","STUDY-001-038","038",2,"WEEK 4","DIABP","Diastolic Blood Pressure",76,"mmHg","2026-06-23"
"STUDY-001","VS","STUDY-001-038","038",2,"WEEK 4","PULSE","Pulse Rate",78,"beats/min","2026-06-23"
"STUDY-001","VS","STUDY-001-038","038",3,"WEEK 12","SYSBP","Systolic Blood Pressure",133,"mmHg","2026-08-18"
"STUDY-001","VS","STUDY-001-038","038",3,"WEEK 12","DIABP","Diastolic Blood Pressure",87,"mmHg","2026-08-18"
"STUDY-001","VS","STUDY-001-038","038",3,"WEEK 12","PULSE","Pulse Rate",70,"beats/min","2026-08-18"
"STUDY-001","VS","STUDY-001-039","039",1,"WEEK 1","SYSBP","Systolic Blood Pressure",125,"mmHg","2026-05-27"
"STUDY-001","VS","STUDY-001-039","039",1,"WEEK 1","DIABP","Diastolic Blood Pressure",81,"mmHg","2026-05-27"
"STUDY-001","VS","STUDY-001-039","039",1,"WEEK 1","PULSE","Pulse Rate",75,"beats/min","2026-05-27"
"STUDY-001","VS","STUDY-001-039","039",2,"WEEK 4","SYSBP","Systolic Blood Pressure",134,"mmHg","2026-06-24"
"STUDY-001","VS","STUDY-001-039","039",2,"WEEK 4","DIABP","Diastolic Blood Pressure",82,"mmHg","2026-06-24"
"STUDY-001","VS","STUDY-001-039","039",2,"WEEK 4","PULSE","Pulse Rate",75,"beats/min","2026-06-24"
"STUDY-001","VS","STUDY-001-039","039",3,"WEEK 12","SYSBP","Systolic Blood Pressure",127,"mmHg","2026-08-19"
"STUDY-001","VS","STUDY-001-039","039",3,"WEEK 12","DIABP","Diastolic Blood Pressure",74,"mmHg","2026-08-19"
"STUDY-001","VS","STUDY-001-039","039",3,"WEEK 12","PULSE","Pulse Rate",58,"beats/min","2026-08-19"
"STUDY-001","VS","STUDY-001-040","040",1,"WEEK 1","SYSBP","Systolic Blood Pressure",128,"mmHg","2026-05-30"
"STUDY-001","VS","STUDY-001-040","040",1,"WEEK 1","DIABP","Diastolic Blood Pressure",73,"mmHg","2026-05-30"
"STUDY-001","VS","STUDY-001-040","040",1,"WEEK 1","PULSE","Pulse Rate",67,"beats/min","2026-05-30"
"STUDY-001","VS","STUDY-001-040","040",2,"WEEK 4","SYSBP","Systolic Blood Pressure",113,"mmHg","2026-06-27"
"STUDY-001","VS","STUDY-001-040","040",2,"WEEK 4","DIABP","Diastolic Blood Pressure",74,"mmHg","2026-06-27"
"STUDY-001","VS","STUDY-001-040","040",2,"WEEK 4","PULSE","Pulse Rate",77,"beats/min","2026-06-27"
"STUDY-001","VS","STUDY-001-040","040",3,"WEEK 12","SYSBP","Systolic Blood Pressure",145,"mmHg","2026-08-22"
"STUDY-001","VS","STUDY-001-040","040",3,"WEEK 12","DIABP","Diastolic Blood Pressure",93,"mmHg","2026-08-22"
"STUDY-001","VS","STUDY-001-040","040",3,"WEEK 12","PULSE","Pulse Rate",73,"beats/min","2026-08-22"
"STUDY-001","VS","STUDY-001-041","041",1,"WEEK 1","SYSBP","Systolic Blood Pressure",122,"mmHg","2026-06-01"
"STUDY-001","VS","STUDY-001-041","041",1,"WEEK 1","DIABP","Diastolic Blood Pressure",76,"mmHg","2026-06-01"
"STUDY-001","VS","STUDY-001-041","041",1,"WEEK 1","PULSE","Pulse Rate",72,"beats/min","2026-06-01"
"STUDY-001","VS","STUDY-001-041","041",2,"WEEK 4","SYSBP","Systolic Blood Pressure",100,"mmHg","2026-06-29"
"STUDY-001","VS","STUDY-001-041","041",2,"WEEK 4","DIABP","Diastolic Blood Pressure",70,"mmHg","2026-06-29"
"STUDY-001","VS","STUDY-001-041","041",2,"WEEK 4","PULSE","Pulse Rate",44,"beats/min","2026-06-29"
"STUDY-001","VS","STUDY-001-041","041",3,"WEEK 12","SYSBP","Systolic Blood Pressure",123,"mmHg","2026-08-24"
"STUDY-001","VS","STUDY-001-041","041",3,"WEEK 12","DIABP","Diastolic Blood Pressure",78,"mmHg","2026-08-24"
"STUDY-001","VS","STUDY-001-041","041",3,"WEEK 12","PULSE","Pulse Rate",74,"beats/min","2026-08-24"
"STUDY-001","VS","STUDY-001-042","042",1,"WEEK 1","SYSBP","Systolic Blood Pressure",108,"mmHg","2026-06-04"
"STUDY-001","VS","STUDY-001-042","042",1,"WEEK 1","DIABP","Diastolic Blood Pressure",79,"mmHg","2026-06-04"
"STUDY-001","VS","STUDY-001-042","042",1,"WEEK 1","PULSE","Pulse Rate",80,"beats/min","2026-06-04"
"STUDY-001","VS","STUDY-001-042","042",2,"WEEK 4","SYSBP","Systolic Blood Pressure",137,"mmHg","2026-07-02"
"STUDY-001","VS","STUDY-001-042","042",2,"WEEK 4","DIABP","Diastolic Blood Pressure",73,"mmHg","2026-07-02"
"STUDY-001","VS","STUDY-001-042","042",2,"WEEK 4","PULSE","Pulse Rate",81,"beats/min","2026-07-02"
"STUDY-001","VS","STUDY-001-042","042",3,"WEEK 12","SYSBP","Systolic Blood Pressure",128,"mmHg","2026-08-27"
"STUDY-001","VS","STUDY-001-042","042",3,"WEEK 12","DIABP","Diastolic Blood Pressure",65,"mmHg","2026-08-27"
"STUDY-001","VS","STUDY-001-042","042",3,"WEEK 12","PULSE","Pulse Rate",62,"beats/min","2026-08-27"
"STUDY-001","VS","STUDY-001-043","043",1,"WEEK 1","SYSBP","Systolic Blood Pressure",121,"mmHg","2026-06-06"
"STUDY-001","VS","STUDY-001-043","043",1,"WEEK 1","DIABP","Diastolic Blood Pressure",73,"mmHg","2026-06-06"
"STUDY-001","VS","STUDY-001-043","043",1,"WEEK 1","PULSE","Pulse Rate",62,"beats/min","2026-06-06"
"STUDY-001","VS","STUDY-001-043","043",2,"WEEK 4","SYSBP","Systolic Blood Pressure",140,"mmHg","2026-07-04"
"STUDY-001","VS","STUDY-001-043","043",2,"WEEK 4","DIABP","Diastolic Blood Pressure",85,"mmHg","2026-07-04"
"STUDY-001","VS","STUDY-001-043","043",2,"WEEK 4","PULSE","Pulse Rate",69,"beats/min","2026-07-04"
"STUDY-001","VS","STUDY-001-043","043",3,"WEEK 12","SYSBP","Systolic Blood Pressure",116,"mmHg","2026-08-29"
"STUDY-001","VS","STUDY-001-043","043",3,"WEEK 12","DIABP","Diastolic Blood Pressure",74,"mmHg","2026-08-29"
"STUDY-001","VS","STUDY-001-043","043",3,"WEEK 12","PULSE","Pulse Rate",79,"beats/min","2026-08-29"
"STUDY-001","VS","STUDY-001-044","044",1,"WEEK 1","SYSBP","Systolic Blood Pressure",125,"mmHg","2026-06-10"
"STUDY-001","VS","STUDY-001-044","044",1,"WEEK 1","DIABP","Diastolic Blood Pressure",74,"mmHg","2026-06-10"
"STUDY-001","VS","STUDY-001-044","044",1,"WEEK 1","PULSE","Pulse Rate",78,"beats/min","2026-06-10"
"STUDY-001","VS","STUDY-001-044","044",2,"WEEK 4","SYSBP","Systolic Blood Pressure",133,"mmHg","2026-07-08"
"STUDY-001","VS","STUDY-001-044","044",2,"WEEK 4","DIABP","Diastolic Blood Pressure",75,"mmHg","2026-07-08"
"STUDY-001","VS","STUDY-001-044","044",2,"WEEK 4","PULSE","Pulse Rate",63,"beats/min","2026-07-08"
"STUDY-001","VS","STUDY-001-044","044",3,"WEEK 12","SYSBP","Systolic Blood Pressure",103,"mmHg","2026-09-02"
"STUDY-001","VS","STUDY-001-044","044",3,"WEEK 12","DIABP","Diastolic Blood Pressure",87,"mmHg","2026-09-02"
"STUDY-001","VS","STUDY-001-044","044",3,"WEEK 12","PULSE","Pulse Rate",76,"beats/min","2026-09-02"
"STUDY-001","VS","STUDY-001-045","045",1,"WEEK 1","SYSBP","Systolic Blood Pressure",129,"mmHg","2026-06-19"
"STUDY-001","VS","STUDY-001-045","045",1,"WEEK 1","DIABP","Diastolic Blood Pressure",80,"mmHg","2026-06-19"
"STUDY-001","VS","STUDY-001-045","045",1,"WEEK 1","PULSE","Pulse Rate",71,"beats/min","2026-06-19"
"STUDY-001","VS","STUDY-001-045","045",2,"WEEK 4","SYSBP","Systolic Blood Pressure",141,"mmHg","2026-07-17"
"STUDY-001","VS","STUDY-001-045","045",2,"WEEK 4","DIABP","Diastolic Blood Pressure",85,"mmHg","2026-07-17"
"STUDY-001","VS","STUDY-001-045","045",2,"WEEK 4","PULSE","Pulse Rate",76,"beats/min","2026-07-17"
"STUDY-001","VS","STUDY-001-045","045",3,"WEEK 12","SYSBP","Systolic Blood Pressure",138,"mmHg","2026-09-11"
"STUDY-001","VS","STUDY-001-045","045",3,"WEEK 12","DIABP","Diastolic Blood Pressure",78,"mmHg","2026-09-11"
"STUDY-001","VS","STUDY-001-045","045",3,"WEEK 12","PULSE","Pulse Rate",61,"beats/min","2026-09-11"
"STUDY-001","VS","STUDY-001-046","046",1,"WEEK 1","SYSBP","Systolic Blood Pressure",118,"mmHg","2026-06-22"
"STUDY-001","VS","STUDY-001-046","046",1,"WEEK 1","DIABP","Diastolic Blood Pressure",86,"mmHg","2026-06-22"
"STUDY-001","VS","STUDY-001-046","046",1,"WEEK 1","PULSE","Pulse Rate",83,"beats/min","2026-06-22"
"STUDY-001","VS","STUDY-001-046","046",2,"WEEK 4","SYSBP","Systolic Blood Pressure",124,"mmHg","2026-07-20"
"STUDY-001","VS","STUDY-001-046","046",2,"WEEK 4","DIABP","Diastolic Blood Pressure",78,"mmHg","2026-07-20"
"STUDY-001","VS","STUDY-001-046","046",2,"WEEK 4","PULSE","Pulse Rate",65,"beats/min","2026-07-20"
"STUDY-001","VS","STUDY-001-046","046",3,"WEEK 12","SYSBP","Systolic Blood Pressure",106,"mmHg","2026-09-14"
"STUDY-001","VS","STUDY-001-046","046",3,"WEEK 12","DIABP","Diastolic Blood Pressure",76,"mmHg","2026-09-14"
"STUDY-001","VS","STUDY-001-046","046",3,"WEEK 12","PULSE","Pulse Rate",76,"beats/min","2026-09-14"
"STUDY-001","VS","STUDY-001-047","047",1,"WEEK 1","SYSBP","Systolic Blood Pressure",133,"mmHg","2026-06-24"
"STUDY-001","VS","STUDY-001-047","047",1,"WEEK 1","DIABP","Diastolic Blood Pressure",76,"mmHg","2026-06-24"
"STUDY-001","VS","STUDY-001-047","047",1,"WEEK 1","PULSE","Pulse Rate",67,"beats/min","2026-06-24"
"STUDY-001","VS","STUDY-001-047","047",2,"WEEK 4","SYSBP","Systolic Blood Pressure",133,"mmHg","2026-07-22"
"STUDY-001","VS","STUDY-001-047","047",2,"WEEK 4","DIABP","Diastolic Blood Pressure",82,"mmHg","2026-07-22"
"STUDY-001","VS","STUDY-001-047","047",2,"WEEK 4","PULSE","Pulse Rate",71,"beats/min","2026-07-22"
"STUDY-001","VS","STUDY-001-047","047",3,"WEEK 12","SYSBP","Systolic Blood Pressure",106,"mmHg","2026-09-16"
"STUDY-001","VS","STUDY-001-047","047",3,"WEEK 12","DIABP","Diastolic Blood Pressure",71,"mmHg","2026-09-16"
"STUDY-001","VS","STUDY-001-047","047",3,"WEEK 12","PULSE","Pulse Rate",72,"beats/min","2026-09-16"
"STUDY-001","VS","STUDY-001-048","048",1,"WEEK 1","SYSBP","Systolic Blood Pressure",130,"mmHg","2026-07-03"
"STUDY-001","VS","STUDY-001-048","048",1,"WEEK 1","DIABP","Diastolic Blood Pressure",85,"mmHg","2026-07-03"
"STUDY-001","VS","STUDY-001-048","048",1,"WEEK 1","PULSE","Pulse Rate",76,"beats/min","2026-07-03"
"STUDY-001","VS","STUDY-001-048","048",2,"WEEK 4","SYSBP","Systolic Blood Pressure",114,"mmHg","2026-07-31"
"STUDY-001","VS","STUDY-001-048","048",2,"WEEK 4","DIABP","Diastolic Blood Pressure",67,"mmHg","2026-07-31"
"STUDY-001","VS","STUDY-001-048","048",2,"WEEK 4","PULSE","Pulse Rate",74,"beats/min","2026-07-31"
"STUDY-001","VS","STUDY-001-048","048",3,"WEEK 12","SYSBP","Systolic Blood Pressure",103,"mmHg","2026-09-25"
"STUDY-001","VS","STUDY-001-048","048",3,"WEEK 12","DIABP","Diastolic Blood Pressure",77,"mmHg","2026-09-25"
"STUDY-001","VS","STUDY-001-048","048",3,"WEEK 12","PULSE","Pulse Rate",75,"beats/min","2026-09-25"
